File: dataset.csv
Cement (kg),Water (kg),Aggregate (kg),Admixture (kg),Compressive Strength (MPa)
343.635,144.135,701.361,2.07886,60.183
487.679,182.508,767.154,0.265322,62.859
432.998,183.251,706.206,1.81435,56.1762
399.665,190.994,653.222,5.83042,71.08
289.005,198.087,672.382,4.21425,40.356
288.999,218.068,876.467,8.92672,51.1499
264.521,181.304,723.8,8.17444,57.6498
466.544,165.837,818.562,3.41817,67.2455
400.279,203.615,902.05,2.59423,56.9909
427.018,161.667,1014.24,3.79692,76.1812
255.146,175.118,623.587,5.90295,48.4912
492.477,146.277,1079.65,2.68064,76.8642
458.111,142.028,976.74,6.24149,74.0933
303.085,217.012,649.055,4.09412,51.4801
295.456,206.878,1124.15,5.52047,67.2181
295.851,195.678,1152.52,4.36127,62.6036
326.061,172.716,636.647,2.94466,58.1921
381.189,153.864,766.127,9.48453,67.0282
357.986,152.515,1083.72,7.63606,68.329
322.807,160.019,1048.96,1.40113,55.0912
402.963,183.938,710.713,8.68468,69.5622
284.873,197.168,725.61,4.87431,51.3626
323.036,192.816,822.283,8.94552,64.0162
341.59,162.395,890.714,7.99855,70.5181
364.017,216.389,970.953,4.25214,56.9574
446.294,199.032,821.348,0.224693,66.9865
299.918,184.348,877.521,2.68677,52.0628
378.559,188.938,1048.48,5.41634,76.2826
398.104,173.568,622.01,6.33478,64.1755
261.613,159.818,751.462,2.57888,48.1557
401.886,168.478,1028.01,1.39356,68.241
292.631,200.628,1137.12,8.3493,72.2826
266.263,141.151,907.006,9.84402,69.6806
487.221,149.286,919.268,5.2569,80.0
491.408,143.68,664.303,1.71679,66.3021
452.099,143.258,868.447,2.72307,73.0916
326.153,208.437,919.57,0.183907,49.6997
274.418,196.293,745.482,9.14299,65.4782
421.058,177.934,761.546,1.17751,55.0286
360.038,147.827,826.37,5.76516,73.9386
280.51,179.329,612.043,2.74055,42.7261
373.794,177.878,793.247,5.54178,56.2126
258.597,153.856,726.869,6.5142,53.6419
477.33,174.708,796.498,8.29742,76.0821
314.695,171.88,671.857,2.06421,51.3628
415.631,189.268,1134.32,0.109958,63.0859
327.928,190.807,956.155,1.36886,52.4439
380.017,143.624,1007.46,9.00019,69.597
386.678,169.969,1073.5,8.7389,77.5907
296.214,190.069,899.065,5.97413,46.9187
492.396,180.251,652.152,6.00517,63.8825
443.783,208.519,922.264,6.65037,78.7231
484.875,192.695,952.105,1.75371,74.8523
473.707,153.035,1047.26,9.14412,80.0
399.475,145.645,858.996,4.18771,61.9756
480.469,191.394,676.548,3.83139,66.1978
272.123,142.121,770.266,5.18918,53.5746
298.996,186.862,817.849,0.46966,40.2394
261.307,215.218,987.55,1.66283,55.8389
331.333,186.038,942.467,7.38034,71.2529
347.169,171.054,813.658,0.827987,51.1251
317.837,191.463,1191.91,6.03152,70.1653
457.184,176.66,963.465,2.45349,71.7383
339.188,183.649,742.336,3.89296,44.5837
320.234,215.317,661.069,2.88694,45.6276
385.674,170.888,691.715,3.55673,54.478
285.231,216.895,747.575,7.19046,49.4784
450.549,212.428,696.409,2.97122,59.8627
268.638,155.663,711.94,5.66405,60.7553
496.722,145.549,771.057,4.7605,78.2517
443.061,148.062,704.024,6.63671,68.4413
299.679,141.458,1138.06,9.3683,78.6363
251.381,147.555,648.14,7.32572,58.8527
453.865,194.641,914.707,2.1494,72.0177
426.714,145.695,846.238,0.311831,61.6956
432.252,165.518,1189.43,2.62264,72.6427
442.818,207.59,667.223,5.95078,69.3116
268.511,141.862,838.713,0.514258,47.9154
339.616,205.157,1181.68,4.96366,73.5575
278.967,162.548,1119.3,5.96843,68.4612
465.776,149.453,1090.24,3.34244,80.0
405.825,195.739,754.742,7.70912,66.1798
332.725,190.315,702.533,1.06598,53.5516
265.89,210.198,1001.19,0.751378,48.6054
327.746,198.806,1157.63,7.28189,80.0
331.296,204.278,934.058,4.95491,57.4013
432.402,162.563,942.968,6.88402,80.0
409.389,154.195,767.987,4.34827,65.9549
471.803,200.049,1061.7,2.46402,70.6997
368.054,204.547,712.226,8.19102,61.9074
279.899,219.24,794.208,7.99416,55.2406
428.311,173.009,855.262,6.94696,75.8533
440.196,169.761,904.566,2.72145,70.7256
390.319,202.113,745.446,5.90231,60.2258
442.742,167.264,668.902,3.60974,63.0757
373.449,214.461,966.372,0.915821,68.156
380.683,208.673,773.178,9.17314,77.814
356.885,174.32,948.743,1.36819,60.3528
256.355,200.07,692.618,9.50237,55.6053
276.973,200.363,888.684,4.46006,53.8599
257.857,148.25,919.554,1.85133,52.7301
409.103,212.204,631.094,5.41901,54.9569
328.589,180.42,801.963,8.72946,64.0688
377.143,206.117,680.649,7.32225,54.1295
476.892,165.604,638.025,8.06561,76.6771
312.323,211.642,1193.98,6.58783,72.8811
352.596,171.136,793.412,6.92277,61.9347
438.888,140.867,1085.92,8.49196,80.0
307.2,212.431,752.784,2.49668,41.5465
269.245,147.303,1008.9,4.89425,52.293
322.438,165.545,1056.14,2.21209,61.1971
290.305,216.005,957.383,9.87668,71.9406
482.424,216.049,882.946,9.44059,80.0
452.03,185.875,847.105,0.394268,59.8165
408.351,190.547,809.321,7.05575,75.0923
467.865,175.876,1157.72,9.25248,80.0
450.918,163.457,1098.37,1.80575,72.6185
296.643,166.293,1179.02,5.67945,72.4973
473.14,193.801,674.578,9.15488,79.4326
384.836,200.19,1038.52,0.33946,52.4266
451.86,203.326,1163,6.9742,80.0
474.023,203.169,708.74,2.97349,71.3534
329.501,147.296,639.898,9.24396,60.1423
277.513,179.554,1044.67,9.71058,71.514
306.984,144.605,944.684,9.44266,73.1641
356.777,183.962,1105.1,4.74214,70.4202
454.504,175.322,683.863,8.62043,71.6895
465.183,211.016,1077.16,8.44549,80.0
251.738,168.073,720.976,3.191,44.6537
377.687,149.365,698.194,8.28915,73.6882
354.353,151.439,698.559,0.370076,52.2782
305.527,200.921,1088.74,5.9627,63.2413
279.966,189.457,999.118,2.30009,56.956
334.404,148.09,913.839,1.20567,41.6197
485.727,146.729,815.298,0.769532,72.9782
330.801,196.078,1126.32,6.96289,62.293
379.698,145.821,835.467,3.39875,60.728
425.755,205.749,1089.96,7.24767,73.8838
340.907,196.499,863.481,0.653563,45.0039
492.946,146.508,826.167,3.1529,78.8641
490.612,146.787,877.608,5.39491,76.5014
312.946,218.931,780.827,7.90723,61.3198
374.312,169.942,1048.57,3.18753,66.5315
325.22,169.651,901.632,6.25891,65.9914
321.21,205.024,739.328,8.85978,62.1533
259.222,215.78,1139.74,6.15863,55.2278
402.391,218.88,830.335,2.32959,63.8457
375.67,200.27,926.132,0.244008,53.3566
262.87,170.101,1143.88,8.70099,61.7175
319.662,146.68,974.543,0.212694,52.1533
477.066,202.172,670.139,8.74702,80.0
309.89,184.672,1163.9,5.28937,71.5023
286.224,173.938,976.625,9.39068,66.2623
372.363,212.508,800.943,7.98783,64.8686
496.413,148.896,683.563,9.97934,80.0
310.514,179.41,1076.42,3.50712,71.7713
418.034,140.908,972.044,7.67188,80.0
440.405,177.493,920.077,4.01931,72.957
309.409,144.504,1136.34,4.79876,72.5547
432.054,149.505,1073.16,6.27505,80.0
341.946,149.402,691.005,8.73677,63.633
408.076,191.937,787.033,9.84083,73.5217
408.382,199.684,749.093,7.68273,68.3343
383.944,186.67,1046.37,4.17767,68.6211
272.572,216.974,620.119,4.21357,47.0774
458.826,169.99,941.934,7.37582,80.0
330.195,162.857,1057.48,2.38777,65.0397
296.63,209.488,1126.06,1.10474,54.7762
260.194,157.888,805.249,3.54622,49.7681
397.723,217.058,1092.75,2.87239,57.4558
419.391,140.972,666.379,2.96308,65.3897
254.147,217.59,1107.87,2.33608,54.1759
378.023,143.453,676.493,0.420932,56.7564
306.624,211.291,838.372,0.178739,31.1252
411.293,182.216,1078.38,9.87722,80.0
293.592,219.437,689.95,4.27773,46.9433
422.734,145.904,737.551,3.84327,70.3322
346.684,184.308,1033.35,6.79647,64.8469
484.182,217.544,1032.02,2.18254,75.9306
284.38,181.848,984.689,9.49961,62.6184
335.267,190.352,1016.37,7.86345,67.1082
278.368,195.66,925.635,0.89411,57.1813
481.173,176.363,751.079,4.17581,69.2298
469.335,190.205,807.418,8.79118,80.0
314.485,186.745,708.959,9.44732,66.625
414.996,212.093,1145.07,4.67402,77.0735
454.306,143.636,950.035,6.13411,79.7701
388.8,162.477,840.511,1.67034,61.137
382.413,216.033,877.203,9.91169,80.0
310.463,211.221,1168.37,2.31672,59.8817
273.276,176.453,692.011,9.42732,59.1254
474.304,189.611,951.738,6.49647,80.0
475.105,162.19,903.533,6.07737,80.0
408.275,155.05,966.873,5.12689,78.2701
334.757,177.096,610.866,2.3067,50.754
337.302,168.268,1123.27,1.76528,56.8306
431.489,186.692,1159.27,2.20486,80.0
474.278,146.219,939.08,1.86438,66.2863
471.772,217.952,1017.99,7.79584,80.0
444.969,218.897,1153.5,3.50125,71.3882
410.508,195.853,1024.34,0.578427,62.8246
271.035,182.888,691.523,9.69103,59.7307
290.407,164.762,945.773,8.83786,68.4583
474.639,205.104,964.029,9.27752,80.0
401.607,194.778,854.478,9.94908,80.0
252.299,153.009,1041.87,1.73895,54.581
275.368,212.874,1160.62,3.96242,58.4157
415.875,205.803,1155.34,7.58238,80.0
251.265,215.984,870.504,6.96021,60.3102
290.202,198.058,667.943,1.53896,36.0955
387.183,189.073,1190.9,8.15833,80.0
422.974,173.459,1103.34,2.24441,74.7192
412.99,214.618,674.798,2.23818,53.8006
306.067,209.285,1152.51,5.36974,72.3357
428.045,143.617,1121.94,5.9294,80.0
309.312,142.109,911.303,5.80086,63.3945
331.35,170.117,954.765,0.914868,54.2365
436.623,204.844,839.402,8.77461,76.2292
412.408,218.982,632.857,2.656,49.1081
462.306,152.033,801.118,1.29515,58.0525
414.403,187.53,1081.71,8.88748,80.0
392.077,170.471,602.779,9.55651,63.6458
273.419,217.593,800.1,8.62128,52.7508
341.929,207.37,838.901,8.09516,54.4148
316.301,207.066,922.437,6.55242,58.8599
310.997,177.495,1151.91,5.50857,61.1841
493.253,173.186,807.808,0.869868,74.85
348.274,161.873,808.172,4.08453,64.1971
473.012,144.51,1042.5,3.72689,75.3637
407.785,209.178,871.331,2.59754,72.9168
448.703,205.032,734.763,7.2342,76.0388
375.659,219.977,871.464,4.95876,61.0043
394.226,219.731,684.514,0.810462,38.0954
373.129,184.435,705.832,2.20183,65.1246
298.811,201.519,899.021,6.83259,53.4931
430.613,215.581,851.355,0.761309,51.1185
320.193,207.972,1148.91,8.51207,78.2249
256.079,159.788,817.436,4.95147,64.2433
411.368,176.044,948.353,4.80587,77.3183
294.278,150.333,979.359,5.92408,65.9596
485.115,216.324,607.857,8.24681,75.3984
488.482,188.494,998.122,3.47809,80.0
478.716,158.291,706.822,6.78016,78.5167
342.54,193.736,1176.64,5.65732,72.587
253.864,189.45,689.198,2.67028,42.4514
482.08,168.653,848.774,8.7863,80.0
357.046,149.085,651.21,7.97426,59.9654
491.664,193.726,1198.12,6.58452,80.0
490.905,181.625,901.317,8.50582,75.5956
463.252,201.785,957.231,8.67294,80.0
323.612,181.613,640.246,7.08363,51.7122
346.274,208.175,1049.98,8.37013,66.9403
462.784,184.153,725.943,6.97471,73.698
329.231,184.875,1138.83,6.80141,78.4071
292.373,210.132,723.084,6.18611,57.387
389.2,172.279,714.413,7.52717,58.9403
484.039,150.721,621.93,1.58605,57.7497
424.007,142.303,883.24,8.80871,80.0
392.515,200.411,938.905,8.71844,69.9226
274.294,189.625,639.425,0.292473,36.5927
403.752,196.326,1065.32,8.25817,80.0
497.513,157.037,871.973,1.2887,65.7944
285.021,150.91,914.634,3.35119,55.6249
379.582,141.164,864.458,7.43508,65.0338
469.343,168.047,840.458,1.6076,63.9541
435.192,187.193,935.784,8.17967,80.0
424.254,171.38,693.144,8.32134,63.3285
425.621,174.998,709.157,5.07468,67.4386
339.873,212.333,1117.07,0.0638587,56.9123
323.398,167.86,1167.67,2.87038,67.4801
452.34,181.119,823.986,6.16927,74.3557
452.528,202.692,762.447,9.81186,80.0
466.768,171.723,986.4,6.31814,80.0
478.31,189.767,845.241,2.59804,66.7489
377.836,208.989,615.232,6.34006,59.0827
375.379,215.962,693.692,5.39985,61.0668
449.574,151.766,1029.58,7.79845,80.0
412.491,214.127,995.354,1.06981,62.7459
425.492,179.369,616.258,7.61028,63.779
448.948,160.66,733.183,5.41267,66.3682
472.501,176.731,738.645,9.62992,72.8198
334.499,218.403,1003.14,3.41872,68.2091
343.896,179.409,611.826,6.32622,50.207
273.495,166.3,662.465,9.32028,54.0845
394.57,190.672,1079.95,1.0251,60.78
258.986,159.212,707.127,9.37228,62.371
366.4,146.069,991.648,6.87886,71.3689
385.661,150.31,742.91,0.678371,60.9333
321.635,150.244,659.665,3.00964,47.0931
397.708,152.152,745.903,7.08172,70.0987
257.625,151.106,1033.36,0.673506,46.3783
259.337,191.27,1113.42,5.8217,72.1419
455.65,154.55,1098.13,3.45883,71.7611
340.048,167.653,838.31,6.20916,64.7388
281.765,211.743,1000.85,0.45742,51.6986
380.561,177.917,722.991,8.71537,70.3497
442.498,193.405,775.889,9.73489,76.3996
303.955,153.786,1137.8,9.68878,75.5687
405.723,155.383,607.801,7.49652,66.2492
271.337,143.269,651.305,1.30086,41.3761